# f(Hz)	 Electron noise power spectrum density (V^2/Hz)
4.0876e+03 1.3676e-14
4.2686e+03 1.3680e-14
4.4575e+03 1.3684e-14
4.6549e+03 1.3688e-14
4.8610e+03 1.3693e-14
5.0762e+03 1.3698e-14
5.3009e+03 1.3704e-14
5.5356e+03 1.3710e-14
5.7807e+03 1.3717e-14
6.0367e+03 1.3724e-14
6.3039e+03 1.3732e-14
6.5830e+03 1.3741e-14
6.8745e+03 1.3751e-14
7.1788e+03 1.3762e-14
7.4967e+03 1.3774e-14
7.8286e+03 1.3787e-14
8.1752e+03 1.3801e-14
8.5371e+03 1.3817e-14
8.9151e+03 1.3835e-14
9.3098e+03 1.3855e-14
9.7220e+03 1.3876e-14
1.0152e+04 1.3901e-14
1.0602e+04 1.3927e-14
1.1071e+04 1.3957e-14
1.1561e+04 1.3991e-14
1.2073e+04 1.4028e-14
1.2608e+04 1.4070e-14
1.3166e+04 1.4117e-14
1.3749e+04 1.4170e-14
1.4358e+04 1.4230e-14
1.4993e+04 1.4298e-14
1.5657e+04 1.4376e-14
1.6350e+04 1.4466e-14
1.7074e+04 1.4568e-14
1.7830e+04 1.4687e-14
1.8620e+04 1.4827e-14
1.9444e+04 1.4990e-14
2.0305e+04 1.5185e-14
2.1204e+04 1.5419e-14
2.2143e+04 1.5704e-14
2.3123e+04 1.6059e-14
2.4147e+04 1.6511e-14
2.5216e+04 1.7104e-14
2.6332e+04 1.7919e-14
2.7498e+04 1.9117e-14
2.8715e+04 2.1090e-14
2.9987e+04 2.5147e-14
3.1314e+04 2.8337e-13
3.2701e+04 1.9646e-13
3.4148e+04 1.4834e-13
3.5660e+04 9.9363e-14
3.7239e+04 6.9330e-14
3.8888e+04 5.2023e-14
4.0610e+04 4.0846e-14
4.2408e+04 3.2878e-14
4.4285e+04 2.6853e-14
4.6246e+04 2.2145e-14
4.8293e+04 1.8396e-14
5.0431e+04 1.5375e-14
5.2664e+04 1.2919e-14
5.4996e+04 1.0909e-14
5.7431e+04 9.2527e-15
5.9973e+04 7.8800e-15
6.2629e+04 6.7357e-15
6.5401e+04 5.7769e-15
6.8297e+04 4.9693e-15
7.1321e+04 4.2860e-15
7.4478e+04 3.7052e-15
7.7776e+04 3.2097e-15
8.1219e+04 2.7852e-15
8.4815e+04 2.4206e-15
8.8570e+04 2.1064e-15
9.2492e+04 1.8349e-15
9.6587e+04 1.6000e-15
1.0086e+05 1.3962e-15
1.0533e+05 1.2192e-15
1.0999e+05 1.0652e-15
1.1486e+05 9.3122e-16
1.1995e+05 8.1445e-16
1.2526e+05 7.1263e-16
1.3080e+05 6.2378e-16
1.3659e+05 5.4622e-16
1.4264e+05 4.7846e-16
1.4896e+05 4.1923e-16
1.5555e+05 3.6745e-16
1.6244e+05 3.2215e-16
1.6963e+05 2.8250e-16
1.7714e+05 2.4778e-16
1.8498e+05 2.1737e-16
1.9317e+05 1.9073e-16
2.0173e+05 1.6738e-16
2.1066e+05 1.4691e-16
2.1998e+05 1.2895e-16
2.2972e+05 1.1320e-16
2.3989e+05 9.9386e-17
2.5051e+05 8.7263e-17
